uwb_x	uwb_y	enc_x	enc_y	enc_t	gyro_x	gt_x	gt_y
171	666	56828	-724	-612	0	0	0
161	670	56828	-724	-612	76.57	289.737	633.998
162	677	56828	-724	-612	76.57	286.356	633.656
170	680	56828	-724	-612	76.57	287.021	634.011
169	681	56828	-724	-612	76.57	287.949	634.586
165	684	56828	-724	-612	76.57	286.61	633.712
142	682	56828	-724	-612	76.57	286.806	634.049
136	674	56828	-724	-612	76.57	279.919	634.777
137	670	56828	-724	-612	76.57	277.529	634.327
137	674	56828	-724	-612	76.57	277.369	633.753
135	679	56828	-724	-612	76.57	276.508	634.09
142	674	56828	-724	-612	76.57	275.863	635.414
135	672	56828	-724	-612	76.57	279.334	633.4
140	673	56828	-724	-612	76.57	276.549	634.095
138	670	56828	-724	-612	76.57	278.483	634.203
144	674	56828	-724	-612	76.57	278.436	633.895
142	677	56828	-724	-612	76.57	280.14	633.963
146	668	56828	-724	-612	76.57	280.357	634.213
155	671	56828	-724	-612	76.57	279.612	633.509
150	670	56828	-724	-612	76.57	284.316	633.437
138	675	56828	-724	-612	76.57	281.318	633.84
137	673	56828	-724	-612	76.57	281.694	633.84
159	671	56828	-724	-612	76.57	277.534	634.742
151	678	56828	-724	-612	75.76	285.223	633.597
132	681	56828	-724	-612	74.17	285.416	633.518
140	683	56828	-724	-613	73.45	274.577	633.944
151	689	56833	-725	-614	72.47	278.52	633.84
163	692	56841	-728	-615	70.92	277.925	633.915
165	684	56860	-732	-616	70.13	285.973	634.001
162	671	56898	-738	-618	69.71	285.94	634.748
162	659	56949	-739	-618	70.31	286.012	628.326
142	635	56995	-741	-618	69.64	283.805	619.742
142	609	57045	-739	-618	69.49	275.958	608.845
78	565	57094	-740	-618	69.29	278.886	569.243
21	528	57143	-740	-618	69.73	247.778	548.149
-28	492	57191	-741	-618	69.66	217.788	485.076
-13	444	57239	-740	-618	68.82	183.999	419.798
7	405	57289	-740	-618	68.47	185.462	393.572
-56	370	57338	-741	-619	68.07	215.01	325.993
86	326	57385	-742	-619	68.56	163.671	296.596
183	280	57432	-743	-619	67.92	167.123	266.345
263	237	57480	-741	-619	67.81	324.614	199.277
290	190	57529	-743	-619	67.48	346.554	165.579
309	143	57575	-743	-619	67.12	359.44	106.791
321	102	57622	-744	-619	67.46	367.194	51.7485
315	51	57669	-746	-620	66.87	374.419	15.3761
319	19	57719	-745	-620	66.74	375.03	-45.9014
324	-30	57768	-746	-620	66.73	379.383	-74.9681
330	-53	57818	-746	-620	67	381.62	-106.579
333	-84	57864	-746	-620	66.93	384.535	-162.933
327	-129	57911	-745	-620	66.73	386.513	-195.763
332	-187	57956	-745	-620	66.76	392.858	-287.115
345	-230	58001	-745	-620	67.47	398.796	-321.933
336	-277	58046	-745	-620	67.34	406.705	-352.641
350	-309	58093	-743	-619	67.6	409.611	-379.418
358	-355	58144	-743	-619	67.38	416.82	-439.966
355	-403	58193	-742	-619	66.93	421.241	-470.323
368	-448	58242	-742	-619	67.28	424.915	-523.998
377	-512	58290	-744	-619	67.15	428.523	-553.924
387	-550	58290	-744	-619	67.48	431.025	-639.334
382	-587	58384	-742	-619	68.09	430.723	-673.046
377	-643	58436	-741	-619	67.41	425.169	-704.185
377	-683	58476	-740	-618	67.25	422.824	-731.361
389	-724	58501	-740	-618	66.19	421.33	-770.517
392	-752	58509	-741	-618	66.19	428.489	-857.998
392	-763	58504	-741	-619	69.15	433.662	-889.009
389	-790	58501	-739	-620	75.33	435.846	-914.664
391	-796	58499	-735	-617	80.82	435.351	-941.11
386	-813	58499	-733	-612	85.58	438.306	-935.926
379	-823	58498	-734	-606	90.56	434.184	-932.02
384	-834	58498	-735	-601	96.37	436.572	-929.408
379	-853	58499	-734	-596	101.55	441.15	-932.163
368	-858	58498	-734	-590	106.72	440.471	-935.816
368	-868	58498	-734	-585	112.49	437.271	-940.575
363	-870	58498	-734	-580	117.76	440.997	-940.554
361	-858	58498	-733	-574	123.16	442.319	-939.892
361	-848	58499	-733	-569	128.17	441.694	-937.463
362	-842	58499	-734	-563	134.35	442.474	-934.525
351	-855	58499	-734	-558	139.47	443.197	-933.774
334	-866	58499	-734	-553	143.11	441.52	-931.369
320	-892	58504	-731	-548	145.08	437.937	-933.476
320	-902	58516	-726	-544	147.46	432.635	-939.433
347	-906	58539	-715	-542	148.36	431.151	-938.549
378	-883	58571	-705	-539	148.86	434.337	-938.903
412	-856	58606	-701	-538	149.09	443.128	-928.039
465	-836	58647	-700	-538	149.74	450.469	-920.743
467	-836	58691	-701	-538	149.84	486.668	-896.918
509	-823	58739	-699	-537	149.32	505.37	-893.89
495	-832	58787	-698	-537	149.63	528.496	-889.584
507	-866	58836	-699	-537	149.36	576.821	-897.277
542	-895	58887	-699	-537	149.58	602.104	-903.994
560	-908	58935	-700	-538	149.92	661.494	-910.601
604	-915	58983	-699	-537	149.18	711.502	-921.388
656	-915	59030	-697	-537	148.81	746.643	-927.651
686	-925	59078	-699	-537	149.52	806.875	-932.181
734	-930	59126	-701	-538	149.33	839.639	-933.228
782	-930	59174	-699	-537	149.5	896.427	-933.072
832	-931	59224	-699	-537	149.6	934.219	-931.737
883	-935	59273	-698	-537	148.9	977.856	-932.233
926	-932	59321	-697	-537	148.55	1037.11	-936.126
969	-945	59369	-699	-537	148.22	1078.08	-935.096
1011	-950	59417	-700	-538	147.76	1134.49	-938.537
1059	-953	59464	-701	-538	147.86	1189.65	-941.53
1108	-975	59511	-702	-538	147.99	1230.83	-945.119
1160	-983	59557	-703	-538	147.94	1273.85	-951.692
1189	-991	59607	-702	-538	147.53	1331.74	-962.698
1235	-1000	59658	-703	-538	147.65	1360.52	-967.867
1283	-1013	59707	-704	-539	147.2	1413.68	-976.755
1327	-1013	59756	-703	-539	147.13	1452.84	-982.71
1379	-1025	59804	-705	-539	147.07	1506.25	-989.539
1417	-1023	59850	-705	-539	146.32	1548.28	-995.996
1452	-1016	59895	-705	-539	146.22	1614.17	-1008.13
1493	-1014	59942	-707	-539	146.17	1648.55	-1008.15
1529	-1019	59988	-707	-539	146.64	1664.04	-1017
1572	-1009	60034	-707	-539	149.03	1731.39	-1018.1
1623	-1016	60070	-709	-539	153.06	1766.97	-1014.52
1668	-1026	60097	-715	-537	157.39	1782.83	-1019.2
1695	-1047	60112	-724	-533	162.63	1859.29	-1017.64
1711	-1051	60118	-729	-529	168.32	1885.29	-1024.85
1729	-1064	60119	-730	-524	173.65	1918.94	-1034.3
1748	-1068	60119	-729	-518	178.52	1935.17	-1039.03
1760	-1088	60120	-729	-513	-175.62	1947.42	-1045.16
1777	-1116	60120	-729	-507	-169.99	1955.41	-1048.21
1789	-1129	60120	-729	-502	-164.97	1956.24	-1043.5
1822	-1125	60120	-729	-497	-160.17	1968.9	-1045.32
1853	-1145	60120	-730	-491	-154.01	1982.67	-1042.68
1848	-1116	60121	-730	-486	-149.07	1982.5	-1041.94
1840	-1131	60121	-730	-481	-143.37	1987.9	-1035.99
1807	-1153	60121	-730	-475	-138.59	1985.38	-1037.58
1784	-1167	60121	-730	-470	-134.94	1969.99	-1033.62
1861	-1176	60127	-728	-465	-132.41	1952.95	-1034.38
1903	-1194	60138	-724	-461	-128.82	1982.9	-1040.68
1920	-1199	60158	-717	-459	-127.98	1993.85	-1048.17
1922	-1191	60194	-707	-456	-129.44	1993.93	-1050.58
1936	-1169	60228	-700	-455	-128.87	1990.39	-1049.63
1934	-1138	60276	-701	-455	-128.32	1992.61	-1033.24
1946	-1105	60322	-701	-455	-128.91	1989.09	-1017.47
1953	-1056	60371	-700	-455	-128.85	1980.8	-979.672
1954	-1003	60422	-700	-455	-129.05	1985.86	-956.704
1951	-957	60472	-700	-455	-129.31	2004.77	-890.365
1964	-911	60521	-700	-455	-129.36	2011.13	-843.436
1973	-869	60569	-702	-455	-129.76	2018.52	-811.901
1990	-834	60614	-702	-455	-129.45	2033.55	-750.795
1991	-784	60661	-703	-456	-129.34	2043.16	-720.977
1993	-744	60712	-703	-456	-129.5	2049.54	-689.135
1988	-704	60763	-703	-456	-129.36	2059.42	-629.977
1976	-674	60811	-703	-456	-129.21	2063.39	-599.43
1961	-639	60857	-702	-456	-128.7	2068.92	-572.342
1958	-591	60903	-701	-455	-128.42	2073.6	-482.727
1957	-554	60950	-700	-455	-129.05	2079.52	-443.935
1969	-504	60998	-699	-455	-128.61	2080.61	-425.445
2005	-463	61047	-700	-455	-128.13	2090.24	-354.637
2006	-411	61095	-699	-455	-128.95	2105.97	-323.092
2018	-360	61143	-698	-455	-129.17	2113.51	-263.907
2041	-311	61191	-700	-455	-129.16	2119.95	-228.364
2038	-266	61238	-701	-455	-129.09	2135.46	-167.471
2069	-222	61285	-701	-455	-129.55	2139.35	-132.24
2080	-191	61330	-701	-455	-129.76	2153.93	-75.5012
2094	-163	61377	-702	-456	-129.47	2161.15	-44.5119
2063	-124	61425	-704	-456	-129.63	2171.52	4.00046
2067	-88	61475	-703	-456	-129.65	2170.59	53.193
2079	-39	61522	-703	-456	-129.74	2176.63	86.2902
2093	13	61567	-703	-456	-129.79	2191.72	139.399
2116	67	61612	-703	-456	-129.79	2200.83	184.485
2104	117	61657	-703	-456	-129.83	2204.23	194.51
2104	163	61701	-703	-456	-129.79	2216.72	283.916
2102	196	61746	-703	-456	-129.65	2221.86	322.354
2099	239	61791	-703	-456	-129.71	2229.09	367.891
2090	279	61835	-703	-456	-129.09	2238.53	422.117
2108	318	61880	-703	-456	-128.77	2235.13	454.919
2133	360	61928	-702	-456	-128.99	2248.49	501.238
2134	408	61975	-700	-455	-128.98	2261.83	538.015
2158	444	62026	-701	-455	-128.72	2267.27	591.396
2165	497	62076	-701	-455	-128.56	2280.27	626.071
2146	546	62124	-700	-455	-128.61	2281.5	633.142
2144	590	62172	-699	-455	-127.91	2283.48	726.897
2177	635	62218	-699	-455	-127.92	2291.26	765.262
2177	680	62265	-698	-454	-127.45	2308.89	819.761
2208	721	62311	-698	-454	-127.48	2312.43	858.643
2201	769	62357	-696	-454	-127.66	2328.34	907.357
2177	812	62403	-696	-454	-127.69	2332.18	963.179
2156	852	62449	-696	-454	-128.08	2323.71	999.656
2142	889	62493	-696	-454	-127.42	2316.33	1045.25
2127	930	62541	-697	-454	-127.91	2311.26	1082.29
2121	978	62590	-696	-454	-128.15	2309.61	1122.04
2105	1018	62639	-697	-454	-127.7	2307.38	1176.95
2107	1057	62685	-697	-454	-127.32	2303.77	1214.94
2124	1099	62732	-696	-454	-127.05	2303.14	1266.73
2138	1144	62781	-695	-454	-127.14	2315.48	1309.69
2147	1181	62828	-694	-453	-127.39	2329.57	1347.63
2164	1223	62878	-694	-453	-127.14	2339.63	1393.37
2174	1272	62927	-695	-454	-127.49	2348.41	1431.66
2183	1325	62976	-695	-454	-127.51	2357.07	1483.29
2217	1388	63025	-696	-454	-127.48	2359.25	1533.26
2229	1437	63074	-696	-454	-127.54	2380.24	1595.69
2237	1480	63125	-696	-454	-127.37	2387.63	1640.11
2255	1529	63172	-696	-454	-125.41	2398.75	1679.67
2251	1566	63212	-699	-454	-121.34	2406.28	1733.08
2257	1612	63243	-706	-452	-117.9	2406.79	1769.41
2281	1638	63260	-713	-449	-113.1	2415.67	1823.28
2286	1664	63267	-718	-445	-106.61	2427.86	1848.56
2300	1686	63268	-718	-440	-101.39	2442.52	1885.51
2333	1698	63270	-718	-434	-96.48	2451.02	1901.61
2358	1714	63270	-717	-429	-91.2	2461.21	1914.43
2356	1722	63270	-718	-423	-85.31	2479.47	1923.23
2381	1727	63270	-718	-418	-79.39	2479	1926.28
2401	1745	63270	-717	-412	-74.22	2490.56	1923.96
2434	1760	63270	-718	-407	-69.46	2503.19	1934.72
2451	1761	63271	-718	-401	-63.47	2518.47	1948.63
2464	1780	63271	-717	-396	-58.21	2521.27	1947.03
2458	1794	63270	-718	-390	-52.91	2527.36	1960.24
2503	1812	63270	-718	-385	-47.92	2528.14	1968.07
2527	1826	63270	-718	-380	-42.77	2534.59	1980.74
2572	1833	63276	-716	-375	-40.87	2531.62	1978.55
2578	1834	63290	-709	-371	-39.05	2532.33	1980.03
2603	1844	63315	-700	-368	-38.24	2533.42	1979.17
2601	1837	63344	-694	-366	-36.98	2537.06	1975.6
2584	1843	63380	-690	-365	-36.49	2533.41	1970.94
2569	1860	63425	-688	-365	-36.59	2525.07	1970.21
2533	1862	63473	-686	-364	-36.98	2496.02	1969.4
2502	1866	63520	-686	-364	-36.8	2477.54	1967.9
2474	1872	63568	-687	-365	-37.33	2453.57	1970.63
2419	1878	63618	-687	-364	-37.67	2379.64	1979.08
2373	1883	63666	-688	-365	-38.02	2345.69	1983.49
2332	1890	63713	-689	-365	-37.94	2289.95	1990.69
2298	1894	63760	-691	-365	-37.61	2258.78	1998.1
2249	1892	63809	-690	-365	-37.82	2229.08	2002.47
2212	1900	63858	-689	-365	-37.8	2170.7	2009.21
2172	1899	63908	-689	-365	-37.51	2138.97	2014.32
2124	1900	63955	-690	-365	-38.21	2107.29	2020.61
2095	1887	64002	-689	-365	-38.03	2026.42	2026.91
2049	1877	64050	-690	-365	-38.05	1997.61	2025.13
1987	1876	64100	-690	-365	-38.51	1963.74	2024.9
1941	1876	64151	-690	-365	-38.35	1904.88	2028.84
1881	1885	64200	-691	-366	-38.78	1872.26	2031.14
1830	1907	64249	-691	-365	-39.18	1809.97	2041.31
1761	1909	64298	-692	-366	-39.48	1748.28	2057.02
1686	1908	64345	-693	-366	-39.89	1709.96	2063.3
1610	1925	64393	-694	-366	-39.26	1648.2	2066.66
1556	1939	64440	-695	-367	-39.37	1617.44	2077.65
1497	1928	64489	-693	-366	-39.81	1584.82	2087.36
1445	1927	64536	-693	-366	-39.75	1555.61	2091.05
1391	1924	64582	-694	-367	-39.84	1463.74	2090.38
1343	1926	64628	-695	-367	-39.89	1433.43	2088.39
1299	1922	64673	-695	-367	-39.98	1402.31	2091.29
1244	1928	64719	-695	-367	-40.09	1344.64	2090.46
1187	1968	64763	-695	-367	-39.69	1313.75	2097.49
1124	2003	64808	-695	-367	-39.32	1280.22	2127.84
1089	2021	64855	-693	-366	-39.25	1193.94	2155.77
1030	2038	64904	-692	-366	-39.29	1165.92	2166.92
985	2026	64951	-691	-366	-38.73	1108.39	2179.59
947	2045	64998	-691	-366	-38.63	1079.65	2179.79
900	2063	65045	-690	-365	-38.76	1048.27	2191.6
856	2079	65091	-690	-365	-38.34	989.297	2203.95
801	2088	65140	-690	-365	-39.09	958.099	2212.6
741	2095	65189	-689	-365	-39.13	926.007	2219.01
685	2100	65238	-690	-365	-38.98	837.641	2234.14
634	2109	65284	-690	-365	-39.04	806.196	2237.68
582	2111	65330	-690	-365	-38.71	743.519	2247.57
546	2118	65375	-690	-365	-37.75	709.194	2250.25
495	2127	65423	-689	-365	-35.68	676.86	2257.98
455	2136	65463	-689	-364	-32.24	617.393	2270.87
427	2146	65492	-695	-362	-27.9	585.542	2277.42
397	2160	65508	-702	-359	-21.04	530.534	2285.09
198	2037	65514	-706	-354	-16.68	468.346	2298.25
69	1969	65511	-705	-349	-11.46	394.29	2214.06
-16	1904	65512	-705	-343	-6.16	312.219	2218.88
-27	1984	65512	-703	-338	-0.06	260.622	2183.56
7	2077	65513	-705	-332	4.5	237.167	2230.58
43	2056	65513	-705	-327	9.64	253.849	2280.73
71	2148	65512	-705	-322	14.84	285.38	2271.49
85	2214	65512	-705	-317	21.01	305.694	2328.65
112	2258	65512	-705	-312	25.74	313.014	2346.48
119	2307	65511	-704	-306	31.33	329.434	2361.82
134	2347	65512	-703	-301	36.65	330.588	2385.2
152	2318	65511	-703	-295	40.63	338.568	2389.52
187	2351	65517	-701	-290	42.94	348.727	2387.69
189	2382	65529	-693	-286	44.99	364.862	2388.34
187	2415	65550	-681	-284	47.75	365.589	2392.98
184	2411	65575	-672	-281	49.26	363.251	2390.82
184	2365	65606	-663	-279	49.47	362.763	2388.98
186	2324	65645	-658	-277	50.22	365.424	2366.28
187	2283	65686	-656	-277	50.63	368.479	2348.73
179	2239	65732	-655	-276	50.34	369.91	2330.09
168	2221	65780	-653	-276	50.46	362.596	2263.06
167	2187	65831	-653	-276	50.76	355.404	2234.65
184	2156	65882	-654	-276	50.34	351.825	2176.12
210	2099	65930	-653	-276	49.99	358.499	2144.54
204	2064	65978	-654	-276	49.89	371.044	2106.51
205	2001	66025	-655	-276	50.32	362.136	2040.76
176	1965	66072	-656	-277	50.21	357.014	2010.12
169	1938	66121	-655	-276	50.09	353.41	1973.9
161	1901	66166	-655	-276	50.17	327.15	1888.91
162	1878	66217	-655	-276	50.03	319.543	1860.41
139	1845	66267	-655	-276	50.08	313.551	1830.01
136	1820	66317	-655	-276	49.76	301.86	1766.37
124	1765	66367	-655	-276	49.58	297.298	1737.09
125	1715	66416	-656	-277	49.25	289.099	1703.42
111	1666	66463	-657	-277	48.86	282.46	1603.01
122	1626	66511	-658	-277	48.92	270.977	1570.32
113	1526	66558	-659	-277	49.34	272.09	1535.36
98	1505	66604	-660	-278	49.57	259.642	1470.89
98	1471	66652	-658	-277	49.71	251.315	1442.2
83	1430	66700	-657	-277	50.03	246.88	1407.16
66	1379	66748	-656	-277	50.28	235.693	1353.5
69	1329	66796	-655	-276	49.77	219.403	1290.66
54	1294	66843	-654	-276	49.95	213.986	1257.85
61	1242	66892	-655	-276	49.86	199.955	1196.42
50	1150	66938	-656	-276	49.69	195.937	1133.51
63	1110	66983	-656	-276	50.29	191.92	1098.57
64	1065	67028	-656	-276	50.71	190.265	1067.21
40	984	67076	-654	-276	50.9	182.799	1039
63	949	67124	-653	-276	50.84	165.376	960.854
71	913	67172	-652	-275	50.85	166.065	916.518
74	871	67218	-652	-275	50.68	164.592	884.502
94	835	67263	-652	-275	50.73	156.836	821.992
98	800	67308	-652	-276	50.18	156.191	789.316
95	764	67354	-652	-275	50.4	152.461	756.997
85	732	67401	-654	-276	50.38	139.499	669.645
97	691	67452	-653	-276	50.33	130.635	641.272
92	645	67503	-653	-276	50.37	128.146	612.927
91	601	67553	-654	-276	50.25	121.475	551.495
77	552	67603	-653	-276	50.29	113.466	518.372
84	506	67653	-653	-276	50.28	108.946	488.569
68	459	67703	-653	-276	50.25	89.7176	390.994
44	407	67753	-653	-276	50.01	82.77	356.161
21	352	67803	-654	-276	50.31	71.7262	292.392
3	294	67851	-654	-276	50.26	65.2931	257.425
-4	248	67899	-653	-276	50.26	56.9452	220.467
-19	191	67949	-654	-276	50.64	47.6239	157.367
-35	150	67996	-654	-276	50.55	40.6901	121.729
-40	101	68043	-653	-276	50.43	31.4704	88.7431
-63	46	68089	-652	-275	50.07	15.2447	-2.00459
-86	3	68138	-652	-276	49.81	4.9869	-37.1402
-86	-37	68187	-654	-276	49.56	0.731256	-62.25
-96	-84	68235	-655	-276	50.06	-11.6877	-126.403
-104	-126	68235	-655	-276	50.35	-21.8384	-183.665
-102	-178	68330	-654	-276	49.94	-29.0991	-216.527
-113	-220	68382	-653	-276	50.3	-39.8634	-266.694
-108	-273	68427	-654	-276	50.34	-46.4995	-306.447
-105	-318	68452	-653	-276	50.15	-54.7688	-364.254
-109	-357	68463	-653	-276	50.09	-54.6532	-397.497
-122	-373	68460	-653	-276	50.2	-60.7021	-427.444
-141	-393	68457	-653	-276	50.21	-74.7389	-478.551
-148	-398	68457	-653	-276	50.2	-83.8678	-494.997
-146	-402	68457	-653	-276	49.63	-85.5134	-502.119
-131	-415	68457	-653	-276	48.81	-85.0331	-490.528
-136	-414	68456	-653	-276	50.18	-79.9981	-487.93
-155	-424	68455	-655	-277	55.18	-81.7017	-489.402
-139	-429	68454	-656	-276	60.71	-84.9243	-488.518
-152	-427	68453	-658	-271	66.41	-82.8381	-489.259
-148	-411	68453	-659	-266	71.25	-81.5799	-488.474
-172	-399	68453	-659	-260	76.93	-87.0425	-487.502
-175	-396	68451	-658	-255	82.05	-89.622	-481.952
-151	-398	68452	-659	-249	88.13	-90.0477	-486.019
-264	-393	68452	-659	-244	92.88	-85.324	-484.035
-273	-407	68453	-658	-239	96.06	-116.883	-484.812
-308	-421	68458	-655	-234	97.73	-117.63	-483.443
-327	-434	68469	-648	-231	100.63	-137.619	-483.575
-308	-446	68489	-637	-228	101.73	-146.49	-485.321
-297	-461	68522	-628	-226	102.67	-138.252	-489.468
-284	-476	68558	-624	-225	102.82	-131.365	-494.251
-271	-492	68602	-621	-224	102.76	-121.752	-497.009
-257	-524	68647	-621	-224	102.76	-104.085	-515.741
-243	-545	68691	-621	-224	102.76	-89.5935	-534.135
-214	-566	68736	-621	-224	102.88	-77.7061	-549.505
-171	-600	68780	-621	-224	103.53	-31.4999	-606.337
-130	-621	68825	-621	-224	103.89	-3.22373	-627.363
-93	-638	68872	-619	-223	104.22	34.5819	-667.633
-54	-658	68919	-618	-223	104.53	60.2613	-685.889
-26	-700	68967	-616	-223	103.94	99.5215	-725.712
11	-732	69014	-616	-222	104.02	122.369	-744.941
52	-759	69062	-617	-223	104.45	148.859	-762.606
82	-786	69107	-617	-223	103.86	190.665	-806.206
127	-811	69155	-616	-222	104.34	214.24	-826.519
187	-860	69203	-617	-223	104.36	229.551	-850.123
231	-867	69252	-616	-223	104.58	303.498	-907.179
281	-870	69302	-616	-223	104.99	331.713	-922.02
320	-890	69351	-616	-222	104.41	347.044	-947.345
343	-927	69399	-614	-222	104.23	403.015	-983.798
344	-971	69446	-616	-222	104.6	424.526	-1004.78
370	-997	69446	-616	-222	104.91	442.669	-1029.43
403	-1038	69544	-616	-223	104.88	498.967	-1093.37
430	-1083	69597	-615	-222	105.28	524.303	-1116.69
467	-1116	69638	-615	-222	105.86	563.745	-1164.78
504	-1167	69665	-613	-222	107.41	590.171	-1184.58
519	-1220	69682	-609	-221	112.29	615.516	-1209.14
525	-1248	69691	-605	-220	117.57	655.522	-1255.75
526	-1241	69692	-602	-216	122.39	672.429	-1275.95
534	-1244	69692	-601	-210	127.12	692.315	-1306.05
544	-1245	69691	-601	-205	129.97	700.13	-1307.26
543	-1251	69695	-599	-201	131.02	705.811	-1306.02
554	-1259	69706	-593	-198	132.55	707.891	-1302.64
562	-1289	69732	-586	-196	133.9	716.117	-1290.72
570	-1295	69761	-579	-194	134	716.704	-1287.1
577	-1299	69809	-577	-194	133.74	716.882	-1285.87
593	-1301	69852	-576	-193	133.91	742.33	-1279.71
618	-1305	69897	-577	-194	133.38	756.594	-1282.75
646	-1331	69942	-576	-193	133.33	775.294	-1284.18
671	-1359	69990	-578	-194	132.9	819.823	-1299.82
